{
  "resourceType": "Bundle",
  "entry": [
    {
      "resource": {
        "resourceType": "Encounter",
        "id": "e0f4bb08-773d-4351-9dfb-232beedacb03",
        "identifier": [
          {
            "use": "official",
            "system": "urn:oid:4.5.2.4",
            "value": "1002"
          }
        ],
        "status": "in-progress",
        "type": [
          {
            "coding": [
              {
                "system": "urn:oid:4.5.2.4",
                "code": "code_1",
                "display": "display_1"
              }
            ]
          }
        ],
        "priority": {
          "coding": [
            {
              "system": "http://snomed.info/sct",
              "code": "code_0",
              "display": "display_0"
            }
          ]
        },
        "subject": {
          "reference": "Patient/0"
        },
        "participant": [
          {
            "type": [
              {
                "coding": [
                  {
                    "system": "http://hl7.org/fhir/v3/ParticipationType",
                    "code": "PART",
                    "display": "Participation"
                  }
                ]
              }
            ],
            "individual": {
              "reference": "Practitioner/5bb81b0a-eef9-4e9f-8703-29c43a42cb98"
            }
          },
          {
            "type": [
              {
                "coding": [
                  {
                    "system": "http://hl7.org/fhir/v3/ParticipationType",
                    "code": "PART",
                    "display": "Participation"
                  }
                ]
              }
            ],
            "individual": {
              "reference": "Practitioner/0dc997ac-6bc6-435e-88bf-c8fc66c13da9"
            }
          }
        ],
        "period": {
          "start": "2008-05-01T11:45:00-08:00",
          "end": "2011-08-12T17:05:00-08:00"
        },
        "diagnosis": [
          {
            "condition": {
              "reference": "Condition/4e7ad21f-847b-4b81-8aa6-a2a26915dece"
            }
          }
        ],
        "location": [
          {
            "location": {
              "reference": "Location/eb1e27f3-2db8-49a5-a652-d45989a67cac",
              "display": "name_2"
            }
          }
        ]
      }
    },
    {
      "resource": {
        "resourceType": "Practitioner",
        "id": "5bb81b0a-eef9-4e9f-8703-29c43a42cb98",
        "identifier": [
          {
            "use": "official",
            "system": "urn:oid:4.1.12.67",
            "value": "1003"
          }
        ],
        "name": [
          {
            "family": "DOE",
            "given": [
              "JOE"
            ]
          }
        ]
      }
    },
    {
      "resource": {
        "resourceType": "PractitionerRole",
        "id": "de4fbeb6-533c-4303-be85-18e4666cd4b6",
        "practitioner": {
          "reference": "Practitioner/5bb81b0a-eef9-4e9f-8703-29c43a42cb98",
          "display": "JOE DOE"
        },
        "organization": {
          "reference": "Organization/fef25f58-9ef1-47a1-b017-807aba24a914",
          "display": "The Organization"
        },
        "code": [
          {
            "coding": [
              {
                "system": "urn:oid:2.16.840.1.11388 3.6.101",
                "code": "363LA2100X",
                "display": "Nurse Practitioner - Acute Care"
              }
            ]
          }
        ]
      }
    },
    {
      "resource": {
        "resourceType": "Organization",
        "id": "fef25f58-9ef1-47a1-b017-807aba24a914",
        "name": "The Organization",
        "telecom": [
          {
            "system": "phone",
            "value": "+1(555)555-1009"
          }
        ],
        "address": [
          {
            "line": [
              "100 Aperture Drive"
            ],
            "city": "Cleveland",
            "state": "Ohio",
            "postalCode": "44101"
          }
        ]
      }
    },
    {
      "resource": {
        "resourceType": "Practitioner",
        "id": "0dc997ac-6bc6-435e-88bf-c8fc66c13da9",
        "identifier": [
          {
            "use": "official",
            "system": "urn:oid:43.45.78.12",
            "value": "1004"
          },
          {
            "use": "official",
            "system": "urn:oid:1.3.5.7",
            "value": "1005"
          },
          {
            "use": "official",
            "system": "urn:oid:4.5.2.4",
            "value": "1006"
          },
          {
            "use": "official",
            "system": "urn:oid:4.1.12.67",
            "value": "1007"
          }
        ],
        "name": [
          {
            "use": "usual",
            "text": "The Text",
            "family": "DOE",
            "given": [
              "JOE_1",
              "JOE_2"
            ],
            "prefix": [
              "Dr_1",
              "Dr_2"
            ],
            "suffix": [
              "Jr_1",
              "Jr_2"
            ],
            "period": {
              "start": "2008-05-01T11:45:00-08:00",
              "end": "2011-08-12T17:05:00-08:00"
            }
          }
        ]
      }
    },
    {
      "resource": {
        "resourceType": "PractitionerRole",
        "id": "031283c2-2955-4661-9dc9-a0c2d76c48b5",
        "practitioner": {
          "reference": "Practitioner/0dc997ac-6bc6-435e-88bf-c8fc66c13da9",
          "display": "Dr_1 Dr_2 JOE_1 JOE_2 DOE Jr_1 Jr_2"
        },
        "organization": {
          "reference": "Organization/6c4a2a93-441c-404f-a6fc-88c8a2988248",
          "display": "The Organization"
        },
        "code": [
          {
            "coding": [
              {
                "system": "urn:oid:2.16.840.1.11388 3.6.101",
                "code": "363LA2100X",
                "display": "Nurse Practitioner - Acute Care"
              }
            ]
          }
        ]
      }
    },
    {
      "resource": {
        "resourceType": "Organization",
        "id": "6c4a2a93-441c-404f-a6fc-88c8a2988248",
        "identifier": [
          {
            "use": "official",
            "system": "urn:oid:43.45.78.12",
            "value": "1008"
          },
          {
            "use": "official",
            "system": "urn:oid:1.3.5.7",
            "value": "1009"
          },
          {
            "use": "official",
            "system": "urn:oid:4.5.2.4",
            "value": "1010"
          }
        ],
        "name": "The Organization",
        "telecom": [
          {
            "system": "phone",
            "value": "+1(555)555-1009",
            "use": "work"
          },
          {
            "system": "phone",
            "value": "+1(555)555-1009"
          }
        ],
        "address": [
          {
            "use": "home",
            "line": [
              "100 Aperture Drive",
              "Suite #1245"
            ],
            "city": "Cleveland",
            "district": "Montgomery",
            "state": "Ohio",
            "postalCode": "44101"
          },
          {
            "line": [
              "100 Aperture Drive"
            ],
            "city": "Cleveland",
            "state": "Ohio",
            "postalCode": "44101"
          }
        ]
      }
    },
    {
      "resource": {
        "resourceType": "Condition",
        "id": "4e7ad21f-847b-4b81-8aa6-a2a26915dece",
        "identifier": [
          {
            "use": "official",
            "system": "urn:oid:4.1.12.67",
            "value": "1011"
          }
        ],
        "clinicalStatus": "active",
        "verificationStatus": "confirmed",
        "category": [
          {
            "coding": [
              {
                "system": "http://hl7.org/fhir/condition-category",
                "code": "encounter-diagnosis",
                "display": "Encounter Diagnosis"
              }
            ]
          }
        ],
        "code": {
          "coding": [
            {
              "system": "urn:oid:4.1.12.67",
              "code": "code_2",
              "display": "display_2"
            }
          ]
        },
        "subject": {
          "reference": "Patient/0"
        },
        "onsetDateTime": "2017-10-08"
      }
    },
    {
      "resource": {
        "resourceType": "Location",
        "id": "eb1e27f3-2db8-49a5-a652-d45989a67cac",
        "name": "name_2",
        "telecom": [
          {
            "system": "phone",
            "value": "+1(555)555-1009"
          }
        ],
        "address": {
          "line": [
            "100 Aperture Drive"
          ],
          "city": "Cleveland",
          "state": "Ohio",
          "postalCode": "44101"
        }
      }
    }
  ]
}