{
  "resourceType": "Bundle",
  "entry": [
    {
      "resource": {
        "resourceType": "Encounter",
        "id": "c1cc038c-2b1a-46cd-b4b5-0bbfcb272e75",
        "identifier": [
          {
            "use": "official",
            "system": "urn:oid:4.5.2.4",
            "value": "1022"
          }
        ],
        "status": "in-progress",
        "type": [
          {
            "coding": [
              {
                "system": "urn:oid:4.1.12.67",
                "code": "code_2",
                "display": "display_2"
              }
            ]
          }
        ],
        "priority": {
          "coding": [
            {
              "system": "urn:oid:4.5.2.4",
              "code": "code_1",
              "display": "display_1"
            }
          ]
        },
        "subject": {
          "reference": "Patient/0"
        },
        "participant": [
          {
            "type": [
              {
                "coding": [
                  {
                    "system": "http://hl7.org/fhir/v3/ParticipationType",
                    "code": "PART",
                    "display": "Participation"
                  }
                ]
              }
            ],
            "individual": {
              "reference": "Practitioner/72937400-5acb-4eb0-a951-7d2c67ea0fd3"
            }
          }
        ],
        "period": {
          "start": "2008-05-01T11:45:00-08:00",
          "end": "2011-08-12T17:05:00-08:00"
        },
        "diagnosis": [
          {
            "condition": {
              "reference": "Condition/679684be-180b-4176-9aa6-261ca95c9b0d"
            }
          }
        ],
        "location": [
          {
            "location": {
              "reference": "Location/592e8be5-3dfd-4eb6-a2fd-a3e5eb9a7740",
              "display": "name_3"
            }
          }
        ]
      }
    },
    {
      "resource": {
        "resourceType": "Practitioner",
        "id": "72937400-5acb-4eb0-a951-7d2c67ea0fd3",
        "identifier": [
          {
            "use": "official",
            "system": "urn:oid:4.1.12.67",
            "value": "1023"
          }
        ],
        "name": [
          {
            "family": "DOE",
            "given": [
              "JOE"
            ]
          }
        ]
      }
    },
    {
      "resource": {
        "resourceType": "PractitionerRole",
        "id": "11d079a6-fd67-4d6a-82b6-b2666fb4e02d",
        "practitioner": {
          "reference": "Practitioner/72937400-5acb-4eb0-a951-7d2c67ea0fd3",
          "display": "JOE DOE"
        },
        "organization": {
          "reference": "Organization/677cbbd4-d120-44ce-bbc0-9a42789b6b22",
          "display": "The Organization"
        },
        "code": [
          {
            "coding": [
              {
                "system": "urn:oid:2.16.840.1.11388 3.6.101",
                "code": "363LA2100X",
                "display": "Nurse Practitioner - Acute Care"
              }
            ]
          }
        ]
      }
    },
    {
      "resource": {
        "resourceType": "Organization",
        "id": "677cbbd4-d120-44ce-bbc0-9a42789b6b22",
        "name": "The Organization",
        "telecom": [
          {
            "system": "phone",
            "value": "+1(555)555-1009"
          }
        ],
        "address": [
          {
            "line": [
              "100 Aperture Drive"
            ],
            "city": "Cleveland",
            "state": "Ohio",
            "postalCode": "44101"
          }
        ]
      }
    },
    {
      "resource": {
        "resourceType": "Condition",
        "id": "679684be-180b-4176-9aa6-261ca95c9b0d",
        "identifier": [
          {
            "use": "official",
            "system": "urn:oid:43.45.78.12",
            "value": "1024"
          }
        ],
        "clinicalStatus": "active",
        "verificationStatus": "confirmed",
        "category": [
          {
            "coding": [
              {
                "system": "http://hl7.org/fhir/condition-category",
                "code": "encounter-diagnosis",
                "display": "Encounter Diagnosis"
              }
            ]
          }
        ],
        "code": {
          "coding": [
            {
              "system": "urn:oid:43.45.78.12",
              "code": "code_3",
              "display": "display_3"
            }
          ]
        },
        "subject": {
          "reference": "Patient/0"
        },
        "onsetDateTime": "2017-10-08"
      }
    },
    {
      "resource": {
        "resourceType": "Location",
        "id": "592e8be5-3dfd-4eb6-a2fd-a3e5eb9a7740",
        "name": "name_3",
        "telecom": [
          {
            "system": "phone",
            "value": "+1(555)555-1009"
          }
        ],
        "address": {
          "line": [
            "100 Aperture Drive"
          ],
          "city": "Cleveland",
          "state": "Ohio",
          "postalCode": "44101"
        }
      }
    }
  ]
}