{
  "resourceType": "Bundle",
  "entry": [
    {
      "resource": {
        "resourceType": "Encounter",
        "id": "23f76562-fb62-4213-b9a1-a0050de46850",
        "identifier": [
          {
            "use": "official",
            "system": "urn:oid:1.3.5.7",
            "value": "1025"
          }
        ],
        "status": "in-progress",
        "type": [
          {
            "coding": [
              {
                "system": "urn:oid:43.45.78.12",
                "code": "code_3",
                "display": "display_3"
              }
            ]
          }
        ],
        "priority": {
          "coding": [
            {
              "system": "urn:oid:4.5.2.4",
              "code": "code_1",
              "display": "display_1"
            }
          ]
        },
        "subject": {
          "reference": "Patient/0"
        },
        "participant": [
          {
            "type": [
              {
                "coding": [
                  {
                    "system": "http://hl7.org/fhir/v3/ParticipationType",
                    "code": "PART",
                    "display": "Participation"
                  }
                ]
              }
            ],
            "individual": {
              "reference": "Practitioner/b48cfdda-61dc-4be5-9d97-d5ea7fdb5f4c"
            }
          }
        ],
        "period": {
          "start": "2008-05-01T11:45:00-08:00",
          "end": "2011-08-12T17:05:00-08:00"
        },
        "diagnosis": [
          {
            "condition": {
              "reference": "Condition/b88bc193-6c37-45eb-97e3-4ecca94a9fe7"
            }
          }
        ],
        "location": [
          {
            "location": {
              "reference": "Location/83cec753-fc71-477b-9be5-87baeccb7f34",
              "display": "name_4"
            }
          }
        ]
      }
    },
    {
      "resource": {
        "resourceType": "Practitioner",
        "id": "b48cfdda-61dc-4be5-9d97-d5ea7fdb5f4c",
        "identifier": [
          {
            "use": "official",
            "system": "urn:oid:4.5.2.4",
            "value": "1026"
          }
        ],
        "name": [
          {
            "family": "DOE",
            "given": [
              "JOE"
            ]
          }
        ]
      }
    },
    {
      "resource": {
        "resourceType": "PractitionerRole",
        "id": "90704329-fcd6-4f71-bfd5-e2113db4e0d0",
        "practitioner": {
          "reference": "Practitioner/b48cfdda-61dc-4be5-9d97-d5ea7fdb5f4c",
          "display": "JOE DOE"
        },
        "organization": {
          "reference": "Organization/857a8230-7004-4229-b967-cf0053d9dd0e",
          "display": "The Organization"
        },
        "code": [
          {
            "coding": [
              {
                "system": "urn:oid:2.16.840.1.11388 3.6.101",
                "code": "363LA2100X",
                "display": "Nurse Practitioner - Acute Care"
              }
            ]
          }
        ]
      }
    },
    {
      "resource": {
        "resourceType": "Organization",
        "id": "857a8230-7004-4229-b967-cf0053d9dd0e",
        "name": "The Organization",
        "telecom": [
          {
            "system": "phone",
            "value": "+1(555)555-1009"
          }
        ],
        "address": [
          {
            "line": [
              "100 Aperture Drive"
            ],
            "city": "Cleveland",
            "state": "Ohio",
            "postalCode": "44101"
          }
        ]
      }
    },
    {
      "resource": {
        "resourceType": "Condition",
        "id": "b88bc193-6c37-45eb-97e3-4ecca94a9fe7",
        "identifier": [
          {
            "use": "official",
            "system": "urn:oid:4.1.12.67",
            "value": "1027"
          }
        ],
        "clinicalStatus": "active",
        "verificationStatus": "confirmed",
        "category": [
          {
            "coding": [
              {
                "system": "http://hl7.org/fhir/condition-category",
                "code": "encounter-diagnosis",
                "display": "Encounter Diagnosis"
              }
            ]
          }
        ],
        "code": {
          "coding": [
            {
              "system": "http://snomed.info/sct",
              "code": "code_0",
              "display": "display_0"
            }
          ]
        },
        "subject": {
          "reference": "Patient/0"
        },
        "onsetDateTime": "2017-10-08"
      }
    },
    {
      "resource": {
        "resourceType": "Location",
        "id": "83cec753-fc71-477b-9be5-87baeccb7f34",
        "name": "name_4",
        "telecom": [
          {
            "system": "phone",
            "value": "+1(555)555-1009"
          }
        ],
        "address": {
          "line": [
            "100 Aperture Drive"
          ],
          "city": "Cleveland",
          "state": "Ohio",
          "postalCode": "44101"
        }
      }
    }
  ]
}