{
  "resourceType": "Bundle",
  "entry": [
    {
      "resource": {
        "resourceType": "Encounter",
        "id": "867a4257-3230-47d4-8d1a-060e20b03a68",
        "identifier": [
          {
            "use": "official",
            "system": "urn:oid:43.45.78.12",
            "value": "1036"
          }
        ],
        "status": "in-progress",
        "type": [
          {
            "coding": [
              {
                "system": "urn:oid:4.5.2.4",
                "code": "code_1",
                "display": "display_1"
              }
            ]
          }
        ],
        "priority": {
          "coding": [
            {
              "system": "http://snomed.info/sct",
              "code": "code_0",
              "display": "display_0"
            }
          ]
        },
        "subject": {
          "reference": "Patient/0"
        },
        "participant": [
          {
            "type": [
              {
                "coding": [
                  {
                    "system": "http://hl7.org/fhir/v3/ParticipationType",
                    "code": "PART",
                    "display": "Participation"
                  }
                ]
              }
            ],
            "individual": {
              "reference": "Practitioner/017a1a28-f10d-4401-9f39-c03cb9b729ed"
            }
          }
        ],
        "period": {
          "start": "2008-05-01T11:45:00-08:00",
          "end": "2011-08-12T17:05:00-08:00"
        },
        "diagnosis": [
          {
            "condition": {
              "reference": "Condition/37f28b2b-694e-4bed-9cf0-49d81e42794c"
            }
          }
        ],
        "location": [
          {
            "location": {
              "reference": "Location/5ff526fc-fc72-49f3-8618-431be44cf2a2",
              "display": "name_3"
            }
          }
        ]
      }
    },
    {
      "resource": {
        "resourceType": "Practitioner",
        "id": "017a1a28-f10d-4401-9f39-c03cb9b729ed",
        "identifier": [
          {
            "use": "official",
            "system": "urn:oid:1.3.5.7",
            "value": "1037"
          }
        ],
        "name": [
          {
            "family": "DOE",
            "given": [
              "JOE"
            ]
          }
        ]
      }
    },
    {
      "resource": {
        "resourceType": "PractitionerRole",
        "id": "e40489e1-ee85-4bca-bce1-8062d1627e16",
        "practitioner": {
          "reference": "Practitioner/017a1a28-f10d-4401-9f39-c03cb9b729ed",
          "display": "JOE DOE"
        },
        "organization": {
          "reference": "Organization/7f9983f5-9455-4b2a-ba21-addf3449616e",
          "display": "The Organization"
        },
        "code": [
          {
            "coding": [
              {
                "system": "urn:oid:2.16.840.1.11388 3.6.101",
                "code": "363LA2100X",
                "display": "Nurse Practitioner - Acute Care"
              }
            ]
          }
        ]
      }
    },
    {
      "resource": {
        "resourceType": "Organization",
        "id": "7f9983f5-9455-4b2a-ba21-addf3449616e",
        "name": "The Organization",
        "telecom": [
          {
            "system": "phone",
            "value": "+1(555)555-1009"
          }
        ],
        "address": [
          {
            "line": [
              "100 Aperture Drive"
            ],
            "city": "Cleveland",
            "state": "Ohio",
            "postalCode": "44101"
          }
        ]
      }
    },
    {
      "resource": {
        "resourceType": "Condition",
        "id": "37f28b2b-694e-4bed-9cf0-49d81e42794c",
        "identifier": [
          {
            "use": "official",
            "system": "urn:oid:4.5.2.4",
            "value": "1038"
          }
        ],
        "clinicalStatus": "active",
        "verificationStatus": "confirmed",
        "category": [
          {
            "coding": [
              {
                "system": "http://hl7.org/fhir/condition-category",
                "code": "encounter-diagnosis",
                "display": "Encounter Diagnosis"
              }
            ]
          }
        ],
        "code": {
          "coding": [
            {
              "system": "urn:oid:4.1.12.67",
              "code": "code_2",
              "display": "display_2"
            }
          ]
        },
        "subject": {
          "reference": "Patient/0"
        },
        "onsetDateTime": "2017-10-08"
      }
    },
    {
      "resource": {
        "resourceType": "Location",
        "id": "5ff526fc-fc72-49f3-8618-431be44cf2a2",
        "name": "name_3",
        "telecom": [
          {
            "system": "phone",
            "value": "+1(555)555-1009"
          }
        ],
        "address": {
          "line": [
            "100 Aperture Drive"
          ],
          "city": "Cleveland",
          "state": "Ohio",
          "postalCode": "44101"
        }
      }
    }
  ]
}